subjID,gint_gsoc,gint_bsoc,bint_gsoc,bint_bsoc,neu1,neu2,round1,round2_sim_num,round2_sim,round2_dissim_num,round2_dissim,sim_cond,showNUMcond,option_A,option_B,subj_SJT_choice,argument,arg_source_pos_gint_gsoc,arg_source_pos_gint_bsoc,arg_source_neg_bint_gsoc,arg_source_neg_gint_gboc,arg_source_neu_2,arg_source_neu_1,arg_source_race_ethn,arg_source_age,arg_source_gender,arg_source_poli,arg_source_edu,arg_source_occup,Jaccard
1,"important,industrious,practical,skillful","stern,humorless,moody,persistent","warm,happy,tolerant,helpful","superficial,vain,dishonest,wasteful","reward,careful,hands-on,manage","discipline,monitor,network,influence",25,NA,NA,12,NA,dissim,Yes,"Point out to the employee how important his full commitment is to you. Openly communicate your criticism of the employee's current work ethics, but emphasize that you highly valued his performance on former projects.",Ask the employee in a personal conversation why he only makes little progress in his project at present and offer to support him with the further project design by providing specific feedback.,1,"As his manager, a personal conversation would be inappropriate. It could show favoritism. Pointing out how he is failing to meet expectations helps him understand what needs to change. Expressing that his earlier accomplishment did not go unnoticed could prevent him from feeling like he is not a part of the team.","important,cautious,industrious,serious","cold,stern,critical,dominating","sentimental,happy,sociable,humorous","vain,impulsive,dishonest,wasteful","reward,question,hands-on,manage","delegate,monitor,control,recognizable",White,30,Man,44,Some college,JMC Engineer,0.3
2,"cautious,intelligent,reliable,skillful","cold,stern,critical,persistent","modest,helpful,sociable,humorous","vain,impulsive,dishonest,wavering","responsible,hands-on,manage,adequate","discipline,delegate,network,influence",-50,-50,NA,NA,NA,sim,Yes,Ask the employee in a personal conversation why he only makes little progress in his project at present and offer to support him with the further project design by providing specific feedback.,"Point out to the employee how important his full commitment is to you. Openly communicate your criticism of the employee's current work ethics, but emphasize that you highly valued his performance on former projects.",1,"I think this option is the best course of action in this situation because I should be objective in approaching this situation. He has been with the company for a number of years already and he should be fully committed to his responsibilities at the company. I would like to have an open conversation with him, and tell him how important his work is and how much I valued his previous performance.","cautious,intelligent,reliable,skillful","stern,critical,dominating,persistent","modest,warm,helpful,sociable","superficial,vain,impulsive,wavering","careful,responsible,hands-on,manage","discipline,delegate,monitor,control",White,37,Man,82,High school diploma/GED,Factory worker,0.6
3,"industrious,intelligent,reliable,skillful","critical,shrewd,dominating,persistent","modest,warm,tolerant,helpful","unintelligent,superficial,impulsive,wavering","careful,responsible,hands-on,manage","monitor,control,recognizable,influence",50,NA,NA,NA,43,dissim,No,"Point out to the employee how important his full commitment is to you. Openly communicate your criticism of the employee's current work ethics, but emphasize that you highly valued his performance on former projects.",Ask the employee in a personal conversation why he only makes little progress in his project at present and offer to support him with the further project design by providing specific feedback.,1,"I think in this scenario, open communication is a must. When there is an issue, open communication is necessary. This eliminates any possibility of assumptions, malice, and misunderstanding. I think openly communicating criticism while praising prior performance to this employee is important. Instead of specifying the current flaws of the employee, I choose to remind the employee of their valued performance in earlier years. Nevertheless, I am still discussing  the issues that need to be fixed presently with the employee.","industrious,practical,serious,skillful","stern,critical,dominating,persistent","tolerant,helpful,sociable,humorous","superficial,irresponsible,dishonest,wavering","question,responsible,hands-off,adequate","network,social,recognizable,influence",Asian,21,Woman,23,Associate's degree,Marketing Manager,0.33
4,"industrious,intelligent,reliable,skillful","stern,critical,shrewd,persistent","modest,warm,tolerant,helpful","superficial,vain,impulsive,wavering","reward,careful,hands-on,manage","delegate,network,control,influence",46,NA,47,NA,NA,sim,No,"Point out to the employee how important his full commitment is to you. Openly communicate your criticism of the employee's current work ethics, but emphasize that you highly valued his performance on former projects.",Ask the employee in a personal conversation why he only makes little progress in his project at present and offer to support him with the further project design by providing specific feedback.,1,"Although I had nothing against the other option, I thought it was very incomplete as a strategy. As a leader, it's important to be clear about how crucial it is that employees be committed to their work and to motivate them to invest themselves in their work. And constructive criticism is part of the tools a leader has at their disposal to help an employee become better at their work and more invested. Of course, criticism should always come with acknowledgement of an employee's strengths and accomplishments, otherwise it becomes lopsided and depressing for the employee who sees only their flaws being noticed, not the good they do in their work. It has to be balanced.","industrious,intelligent,reliable,skillful","stern,critical,shrewd,persistent","modest,warm,tolerant,helpful","vain,impulsive,dishonest,wasteful","reward,question,responsible,manage","delegate,network,social,influence",White,60,Woman,96,Bachelor's degree or higher,Service Coordinator,0.66
5,"intelligent,reliable,practical,serious","stern,critical,moody,shrewd","sentimental,happy,helpful,humorous","unintelligent,vain,dishonest,wavering","careful,responsible,hands-on,adequate","discipline,delegate,recognizable,influence",41,NA,15,NA,NA,sim,No,"Point out to the employee how important his full commitment is to you. Openly communicate your criticism of the employee's current work ethics, but emphasize that you highly valued his performance on former projects.",Ask the employee in a personal conversation why he only makes little progress in his project at present and offer to support him with the further project design by providing specific feedback.,1,It is important as a leader of a team to set the level of expectation at all times. There is no room for ambiguity as this can lead to loose interpretations or conflict over what was mandated at the beginning of the working relationship. It is also important to openly express praise and acknowledgement for past achievements because often team members simply lack motivation or sense of purpose and giving them that can often lead to an improved sense of self and identity within the organisation and team.,"important,intelligent,reliable,practical","critical,shrewd,dominating,persistent","warm,tolerant,helpful,sociable","superficial,vain,impulsive,wavering","careful,hands-on,manage,adequate","discipline,delegate,recognizable,influence",White,27,Man,84,Bachelor's degree or higher,"Fleet Supervisor, Entertainment Experience",0.45
6,"industrious,intelligent,reliable,skillful","stern,humorless,shrewd,persistent","warm,tolerant,helpful,sociable","superficial,vain,wavering,wasteful","question,careful,manage,adequate","network,social,recognizable,influence",-42,NA,NA,NA,-32,dissim,No,"Point out to the employee how important his full commitment is to you. Openly communicate your criticism of the employee's current work ethics, but emphasize that you highly valued his performance on former projects.",Ask the employee in a personal conversation why he only makes little progress in his project at present and offer to support him with the further project design by providing specific feedback.,2,"As a leader, it is imperative to maintain an open and healthy relationship with those who work under you. In this context, it is clear that the employee has some issues regarding motivation/work ethic and requires adjustment in order to continue effectively. By doing this in an open and supportive manner, the employee should feel capable of expressing the factors that have impacted their performance. This in conjunction with the offer of support will provide them with the opportunity to improve and succeed. Though there is no guaranteetheir behavior will change, such a course will at least afford the opportunity, which is what's best both for the employee and the company.","important,cautious,industrious,serious","stern,critical,dominating,persistent","sentimental,happy,sociable,humorous","superficial,irresponsible,impulsive,dishonest","reward,hands-off,manage,adequate","delegate,monitor,network,control",White,25,Man,79,Bachelor's degree or higher,Operation Supervisor,0.2
7,"intelligent,reliable,practical,skillful","stern,critical,dominating,persistent","modest,warm,tolerant,helpful","superficial,vain,impulsive,wavering","careful,responsible,hands-on,adequate","discipline,delegate,monitor,influence",-49,NA,NA,-41,NA,dissim,Yes,"Point out to the employee how important his full commitment is to you. Openly communicate your criticism of the employee's current work ethics, but emphasize that you highly valued his performance on former projects.",Ask the employee in a personal conversation why he only makes little progress in his project at present and offer to support him with the further project design by providing specific feedback.,2,"There may be outside distractions that are affecting his work performance.He's proven in the past that he is more than capable of doing above average work, so we should give his the opportunity to improve. Maybe we are not challenging him enough or not giving enough guidance. We need to let him know that weexpect more from him and it has been noted that his work has slipped.We should first try to support him if we can and let him know that we will.","intelligent,reliable,practical,skillful","stern,critical,shrewd,dominating","modest,tolerant,helpful,sociable","irresponsible,vain,impulsive,dishonest","responsible,hands-on,hands-off,manage","discipline,delegate,control,recognizable",Asian,52,Man,45,Bachelor's degree or higher,Software Tester,0.5
8,"intelligent,reliable,practical,skillful","stern,critical,humorless,dominating","warm,happy,helpful,sociable","superficial,vain,dishonest,wasteful","careful,responsible,manage,adequate","discipline,monitor,recognizable,influence",-50,NA,NA,NA,40,dissim,No,"Point out to the employee how important his full commitment is to you. Openly communicate your criticism of the employee's current work ethics, but emphasize that you highly valued his performance on former projects.",Ask the employee in a personal conversation why he only makes little progress in his project at present and offer to support him with the further project design by providing specific feedback.,2,Maybe the manager has something going in their personal life. Criticizing and putting the person down wouldn't not motivate them to do a better job. That's why is better to identify the reason for their behavior and find a solution that will improve their performance without adding more stress to their job. This demonstrates to the project manager that you are there for them if they need help.,"intelligent,reliable,practical,skillful","stern,critical,shrewd,persistent","modest,warm,helpful,sociable","superficial,irresponsible,impulsive,wavering","careful,responsible,hands-on,adequate","network,control,recognizable,influence",White,25,Woman,26,Bachelor's degree or higher,self-employed,0.45
9,"important,intelligent,practical,skillful","stern,shrewd,dominating,persistent","modest,tolerant,helpful,humorous","superficial,vain,impulsive,wavering","reward,responsible,hands-on,manage","delegate,network,control,influence",-12,NA,NA,22,NA,dissim,Yes,"Point out to the employee how important his full commitment is to you. Openly communicate your criticism of the employee's current work ethics, but emphasize that you highly valued his performance on former projects.",Ask the employee in a personal conversation why he only makes little progress in his project at present and offer to support him with the further project design by providing specific feedback.,2,"I would offer advice to the employee in private. I would not want to embarrass him and would like to figure out what is going on. He might need additional support, or there may be personal circumstances affecting his performance. In addition, it might be that this project is not a good fit for the individual, and we may want to figure out another project that might work better.","industrious,intelligent,reliable,skillful","stern,critical,humorless,persistent","modest,warm,tolerant,helpful","superficial,vain,impulsive,dishonest","careful,responsible,hands-off,manage","delegate,monitor,recognizable,influence",Asian,41,Man,100,Bachelor's degree or higher,Senior Research Director,0.41
10,"intelligent,reliable,practical,serious","critical,humorless,shrewd,persistent","warm,tolerant,helpful,sociable","superficial,vain,impulsive,wavering","careful,responsible,hands-on,manage","delegate,network,control,influence",-47,-33,NA,NA,NA,sim,Yes,"Point out to the employee how important his full commitment is to you. Openly communicate your criticism of the employee's current work ethics, but emphasize that you highly valued his performance on former projects.",Ask the employee in a personal conversation why he only makes little progress in his project at present and offer to support him with the further project design by providing specific feedback.,2,"If this employee only recently started coming in late and underperforming, there must be a reason for it. It's important to talk to the employee to understand why there is a disconnect between them and their assignment. Perhaps the assignment is not a right fit and the employee and company could benefit from the employee being moved to a different project. If the issue is personal and unrelated to the job, it's important to know that as well, since, in that instance, moving the employee to a different assignment may not change anything. A company's success depends on the success of their employees. While it's important to reinforce the necessity of high quality work, that work should not come at the expense of the employees' wellbeing if the company wants to succeed in the long run.","industrious,intelligent,practical,skillful","stern,critical,shrewd,persistent","warm,tolerant,helpful,sociable","superficial,vain,dishonest,wavering","question,responsible,hands-on,manage","discipline,delegate,control,influence",White,62,Woman,15,Bachelor's degree or higher,copywriter,0.6
11,"important,reliable,practical,skillful","cold,humorless,dominating,persistent","modest,sentimental,warm,sociable","superficial,vain,wavering,wasteful","question,careful,hands-off,manage","discipline,network,control,influence",22,-31,NA,NA,NA,sim,Yes,Ask the employee in a personal conversation why he only makes little progress in his project at present and offer to support him with the further project design by providing specific feedback.,"Point out to the employee how important his full commitment is to you. Openly communicate your criticism of the employee's current work ethics, but emphasize that you highly valued his performance on former projects.",2,"The change in productivity could indicate that the employee is either dissatisfied with their current project or has personal issues. Either way, it's better to get to know the employee and find out why their behavior changed, rather than lecture them about how much they should care. Additionally, there is nothing wrong with the employee working only as long as required. Coming in late should be addressed, but they are not obligated to work longer than required.","intelligent,reliable,serious,skillful","cold,stern,critical,persistent","modest,tolerant,helpful,sociable","superficial,irresponsible,wavering,wasteful","question,careful,responsible,manage","discipline,control,social,influence",White,28,Man,100,Associate's degree,Soldier,0.45
12,"important,cautious,practical,skillful","critical,humorless,dominating,persistent","happy,tolerant,helpful,sociable","superficial,irresponsible,dishonest,wavering","careful,hands-on,manage,adequate","delegate,monitor,control,influence",-47,NA,NA,NA,28,dissim,No,Ask the employee in a personal conversation why he only makes little progress in his project at present and offer to support him with the further project design by providing specific feedback.,"Point out to the employee how important his full commitment is to you. Openly communicate your criticism of the employee's current work ethics, but emphasize that you highly valued his performance on former projects.",1,"I think you have to be as clear as possible with communication. You can still be sensitive to asking the employee personally what's going on, but they need to know the importance of their value to the team. As long as the employee knows we value their work and value them as an individual, this conversation should be fine. If not, that means this employee is ready to leave the company and it will be for the best.","important,intelligent,reliable,skillful","stern,critical,dominating,persistent","happy,helpful,sociable,humorous","superficial,vain,impulsive,wavering","reward,hands-on,manage,adequate","network,social,recognizable,influence",Black or African American,24,Woman,79,Bachelor's degree or higher,Marketing Coordinator,0.41
13,"industrious,intelligent,reliable,skillful","stern,critical,humorless,persistent","modest,happy,helpful,sociable","superficial,vain,impulsive,wasteful","careful,responsible,hands-on,manage","discipline,delegate,network,social",-25,NA,NA,NA,-24,dissim,No,"Point out to the employee how important his full commitment is to you. Openly communicate your criticism of the employee's current work ethics, but emphasize that you highly valued his performance on former projects.",Ask the employee in a personal conversation why he only makes little progress in his project at present and offer to support him with the further project design by providing specific feedback.,2,"If this employee only recently started coming in late and underperforming, there must be a reason for it. It's important to talk to the employee to understand why there is a disconnect between them and their assignment. Perhaps the assignment is not a right fit and the employee and company could benefit from the employee being moved to a different project. If the issue is personal and unrelated to the job, it's important to know that as well, since, in that instance, moving the employee to a different assignment may not change anything. A company's success depends on the success of their employees. While it's important to reinforce the necessity of high quality work, that work should not come at the expense of the employees' wellbeing if the company wants to succeed in the long run.","industrious,intelligent,practical,skillful","stern,critical,shrewd,persistent","warm,tolerant,helpful,sociable","superficial,vain,dishonest,wavering","question,responsible,hands-on,manage","discipline,delegate,control,influence",White,62,Woman,15,Bachelor's degree or higher,copywriter,0.45
14,"intelligent,reliable,practical,skillful","stern,critical,shrewd,persistent","modest,tolerant,helpful,sociable","vain,impulsive,wavering,wasteful","careful,responsible,hands-on,adequate","discipline,delegate,monitor,influence",-50,NA,NA,NA,26,dissim,No,"Point out to the employee how important his full commitment is to you. Openly communicate your criticism of the employee's current work ethics, but emphasize that you highly valued his performance on former projects.",Ask the employee in a personal conversation why he only makes little progress in his project at present and offer to support him with the further project design by providing specific feedback.,2,"As a leader, it is imperative to maintain an open and healthy relationship with those who work under you. In this context, it is clear that the employee has some issues regarding motivation/work ethic and requires adjustment in order to continue effectively. By doing this in an open and supportive manner, the employee should feel capable of expressing the factors that have impacted their performance. This in conjunction with the offer of support will provide them with the opportunity to improve and succeed. Though there is no guaranteetheir behavior will change, such a course will at least afford the opportunity, which is what's best both for the employee and the company.","important,cautious,industrious,serious","stern,critical,dominating,persistent","sentimental,happy,sociable,humorous","superficial,irresponsible,impulsive,dishonest","reward,hands-off,manage,adequate","delegate,monitor,network,control",White,25,Man,79,Bachelor's degree or higher,Operation Supervisor,0.2
15,"cautious,reliable,practical,skillful","critical,shrewd,dominating,persistent","tolerant,helpful,sociable,humorous","superficial,vain,impulsive,wavering","careful,responsible,hands-on,manage","monitor,network,control,social",-27,-23,NA,NA,NA,sim,Yes,Ask the employee in a personal conversation why he only makes little progress in his project at present and offer to support him with the further project design by providing specific feedback.,"Point out to the employee how important his full commitment is to you. Openly communicate your criticism of the employee's current work ethics, but emphasize that you highly valued his performance on former projects.",1,"I think this option is the best course of action in this situation because I should be objective in approaching this situation. He has been with the company for a number of years already and he should be fully committed to his responsibilities at the company. I would like to have an open conversation with him, and tell him how important his work is and how much I valued his previous performance.","cautious,intelligent,reliable,skillful","stern,critical,dominating,persistent","modest,warm,helpful,sociable","superficial,vain,impulsive,wavering","careful,responsible,hands-on,manage","discipline,delegate,monitor,control",White,37,Man,82,High school diploma/GED,Factory worker,0.6
16,"important,intelligent,reliable,skillful","cold,critical,humorless,dominating","modest,warm,tolerant,helpful","superficial,vain,impulsive,dishonest","responsible,hands-on,manage,adequate","delegate,monitor,recognizable,influence",-27,-25,NA,NA,NA,sim,Yes,"Point out to the employee how important his full commitment is to you. Openly communicate your criticism of the employee's current work ethics, but emphasize that you highly valued his performance on former projects.",Ask the employee in a personal conversation why he only makes little progress in his project at present and offer to support him with the further project design by providing specific feedback.,2,"I would offer advice to the employee in private. I would not want to embarrass him and would like to figure out what is going on. He might need additional support, or there may be personal circumstances affecting his performance. In addition, it might be that this project is not a good fit for the individual, and we may want to figure out another project that might work better.","industrious,intelligent,reliable,skillful","stern,critical,humorless,persistent","modest,warm,tolerant,helpful","superficial,vain,impulsive,dishonest","careful,responsible,hands-off,manage","delegate,monitor,recognizable,influence",Asian,41,Man,100,Bachelor's degree or higher,Senior Research Director,0.66
17,"important,intelligent,practical,skillful","cold,stern,critical,persistent","sentimental,warm,happy,helpful","superficial,vain,impulsive,dishonest","question,responsible,manage,adequate","delegate,monitor,social,influence",-14,NA,NA,NA,0,dissim,No,"Point out to the employee how important his full commitment is to you. Openly communicate your criticism of the employee's current work ethics, but emphasize that you highly valued his performance on former projects.",Ask the employee in a personal conversation why he only makes little progress in his project at present and offer to support him with the further project design by providing specific feedback.,2,Maybe the manager has something going in their personal life. Criticizing and putting the person down wouldn't not motivate them to do a better job. That's why is better to identify the reason for their behavior and find a solution that will improve their performance without adding more stress to their job. This demonstrates to the project manager that you are there for them if they need help.,"intelligent,reliable,practical,skillful","stern,critical,shrewd,persistent","modest,warm,helpful,sociable","superficial,irresponsible,impulsive,wavering","careful,responsible,hands-on,adequate","network,control,recognizable,influence",White,25,Woman,26,Bachelor's degree or higher,self-employed,0.37
18,"important,intelligent,practical,skillful","stern,critical,moody,persistent","warm,tolerant,helpful,sociable","superficial,vain,impulsive,wavering","careful,responsible,hands-on,adequate","discipline,social,recognizable,influence",27,NA,NA,29,NA,dissim,Yes,"Point out to the employee how important his full commitment is to you. Openly communicate your criticism of the employee's current work ethics, but emphasize that you highly valued his performance on former projects.",Ask the employee in a personal conversation why he only makes little progress in his project at present and offer to support him with the further project design by providing specific feedback.,1,"As his manager, a personal conversation would be inappropriate. It could show favoritism. Pointing out how he is failing to meet expectations helps him understand what needs to change. Expressing that his earlier accomplishment did not go unnoticed could prevent him from feeling like he is not a part of the team.","important,cautious,industrious,serious","cold,stern,critical,dominating","sentimental,happy,sociable,humorous","vain,impulsive,dishonest,wasteful","reward,question,hands-on,manage","delegate,monitor,control,recognizable",White,30,Man,44,Some college,JMC Engineer,0.2
19,"intelligent,reliable,practical,skillful","stern,critical,dominating,persistent","warm,tolerant,helpful,sociable","superficial,impulsive,dishonest,wasteful","reward,responsible,hands-on,manage","delegate,monitor,network,influence",50,NA,NA,NA,45,dissim,No,Ask the employee in a personal conversation why he only makes little progress in his project at present and offer to support him with the further project design by providing specific feedback.,"Point out to the employee how important his full commitment is to you. Openly communicate your criticism of the employee's current work ethics, but emphasize that you highly valued his performance on former projects.",2,"As a leader, it is imperative to maintain an open and healthy relationship with those who work under you. In this context, it is clear that the employee has some issues regarding motivation/work ethic and requires adjustment in order to continue effectively. By doing this in an open and supportive manner, the employee should feel capable of expressing the factors that have impacted their performance. This in conjunction with the offer of support will provide them with the opportunity to improve and succeed. Though there is no guaranteetheir behavior will change, such a course will at least afford the opportunity, which is what's best both for the employee and the company.","important,cautious,industrious,serious","stern,critical,dominating,persistent","sentimental,happy,sociable,humorous","superficial,irresponsible,impulsive,dishonest","reward,hands-off,manage,adequate","delegate,monitor,network,control",White,25,Man,79,Bachelor's degree or higher,Operation Supervisor,0.37
20,"cautious,intelligent,practical,skillful","stern,shrewd,dominating,persistent","modest,tolerant,helpful,sociable","superficial,impulsive,wavering,wasteful","careful,responsible,hands-on,manage","monitor,control,recognizable,influence",26,NA,1,NA,NA,sim,No,"Point out to the employee how important his full commitment is to you. Openly communicate your criticism of the employee's current work ethics, but emphasize that you highly valued his performance on former projects.",Ask the employee in a personal conversation why he only makes little progress in his project at present and offer to support him with the further project design by providing specific feedback.,1,"I think this option is the best course of action in this situation because I should be objective in approaching this situation. He has been with the company for a number of years already and he should be fully committed to his responsibilities at the company. I would like to have an open conversation with him, and tell him how important his work is and how much I valued his previous performance.","cautious,intelligent,reliable,skillful","stern,critical,dominating,persistent","modest,warm,helpful,sociable","superficial,vain,impulsive,wavering","careful,responsible,hands-on,manage","discipline,delegate,monitor,control",White,37,Man,82,High school diploma/GED,Factory worker,0.6
21,"cautious,industrious,intelligent,serious","stern,humorless,dominating,persistent","modest,warm,happy,humorous","unintelligent,dishonest,wavering,wasteful","reward,question,manage,adequate","discipline,monitor,network,social",39,NA,NA,NA,-27,dissim,No,"Point out to the employee how important his full commitment is to you. Openly communicate your criticism of the employee's current work ethics, but emphasize that you highly valued his performance on former projects.",Ask the employee in a personal conversation why he only makes little progress in his project at present and offer to support him with the further project design by providing specific feedback.,1,"I made my decision because I think that it is important to voice your criticisms/constructive feedback to the employee so that they know what exactly they need to change to become an effective employee. I do not think that it is a good idea to sugar coat the situation because the employee may never know what went wrong in their performance. However, I also think that it is incredibly important to point out the things that the employee is doing well or has done well in the past to increase motivation. Otherwise, they might feel like they are being reprimanded and being looked down upon. The goal is to motivate not to tear down.","important,intelligent,reliable,skillful","stern,critical,shrewd,persistent","warm,tolerant,helpful,sociable","superficial,vain,impulsive,wavering","responsible,hands-on,manage,adequate","discipline,monitor,control,influence",Black or African American,23,Woman,100,Bachelor's degree or higher,Graduate research assistant,0.23
22,"important,reliable,practical,serious","cold,stern,dominating,persistent","modest,happy,tolerant,humorous","superficial,vain,impulsive,dishonest","reward,question,hands-on,adequate","network,control,social,influence",-23,8,NA,NA,NA,sim,Yes,"Point out to the employee how important his full commitment is to you. Openly communicate your criticism of the employee's current work ethics, but emphasize that you highly valued his performance on former projects.",Ask the employee in a personal conversation why he only makes little progress in his project at present and offer to support him with the further project design by providing specific feedback.,2,"A discussion about the employee's behavior is necessary to determine a future course of action. There are numerous reasons, some of which could easily be fixed, that could explain his problematic behavior. Meeting to evaluate his needs and discuss the company's and employees goals is the best step.","intelligent,reliable,serious,skillful","stern,critical,dominating,persistent","modest,warm,tolerant,helpful","vain,impulsive,dishonest,wasteful","careful,responsible,hands-on,manage","delegate,monitor,control,influence",White,36,Man,71,Bachelor's degree or higher,Clinical Neuropsychologist,0.37
23,"important,intelligent,practical,skillful","stern,critical,dominating,persistent","happy,tolerant,helpful,sociable","superficial,vain,impulsive,dishonest","responsible,hands-on,manage,adequate","delegate,monitor,control,social",21,NA,NA,NA,-22,dissim,No,"Point out to the employee how important his full commitment is to you. Openly communicate your criticism of the employee's current work ethics, but emphasize that you highly valued his performance on former projects.",Ask the employee in a personal conversation why he only makes little progress in his project at present and offer to support him with the further project design by providing specific feedback.,1,"Although I had nothing against the other option, I thought it was very incomplete as a strategy. As a leader, it's important to be clear about how crucial it is that employees be committed to their work and to motivate them to invest themselves in their work. And constructive criticism is part of the tools a leader has at their disposal to help an employee become better at their work and more invested. Of course, criticism should always come with acknowledgement of an employee's strengths and accomplishments, otherwise it becomes lopsided and depressing for the employee who sees only their flaws being noticed, not the good they do in their work. It has to be balanced.","industrious,intelligent,reliable,skillful","stern,critical,shrewd,persistent","modest,warm,tolerant,helpful","vain,impulsive,dishonest,wasteful","reward,question,responsible,manage","delegate,network,social,influence",White,60,Woman,96,Bachelor's degree or higher,Service Coordinator,0.41
24,"important,intelligent,serious,skillful","stern,critical,dominating,persistent","sentimental,tolerant,helpful,sociable","vain,impulsive,dishonest,wasteful","careful,responsible,hands-on,manage","discipline,control,recognizable,influence",45,44,NA,NA,NA,sim,Yes,Ask the employee in a personal conversation why he only makes little progress in his project at present and offer to support him with the further project design by providing specific feedback.,"Point out to the employee how important his full commitment is to you. Openly communicate your criticism of the employee's current work ethics, but emphasize that you highly valued his performance on former projects.",2,"A discussion about the employee's behavior is necessary to determine a future course of action. There are numerous reasons, some of which could easily be fixed, that could explain his problematic behavior. Meeting to evaluate his needs and discuss the company's and employees goals is the best step.","intelligent,reliable,serious,skillful","stern,critical,dominating,persistent","modest,warm,tolerant,helpful","vain,impulsive,dishonest,wasteful","careful,responsible,hands-on,manage","delegate,monitor,control,influence",White,36,Man,71,Bachelor's degree or higher,Clinical Neuropsychologist,0.66
25,"intelligent,reliable,practical,skillful","critical,shrewd,dominating,persistent","warm,tolerant,helpful,sociable","vain,impulsive,dishonest,wavering","question,responsible,hands-on,manage","discipline,monitor,network,influence",25,NA,NA,-23,NA,dissim,Yes,"Point out to the employee how important his full commitment is to you. Openly communicate your criticism of the employee's current work ethics, but emphasize that you highly valued his performance on former projects.",Ask the employee in a personal conversation why he only makes little progress in his project at present and offer to support him with the further project design by providing specific feedback.,1,"As his manager, a personal conversation would be inappropriate. It could show favoritism. Pointing out how he is failing to meet expectations helps him understand what needs to change. Expressing that his earlier accomplishment did not go unnoticed could prevent him from feeling like he is not a part of the team.","important,cautious,industrious,serious","cold,stern,critical,dominating","sentimental,happy,sociable,humorous","vain,impulsive,dishonest,wasteful","reward,question,hands-on,manage","delegate,monitor,control,recognizable",White,30,Man,44,Some college,JMC Engineer,0.26
26,"important,reliable,practical,skillful","stern,critical,dominating,persistent","modest,warm,tolerant,helpful","superficial,impulsive,dishonest,wavering","reward,question,responsible,manage","delegate,network,recognizable,influence",-36,NA,NA,NA,-29,dissim,No,"Point out to the employee how important his full commitment is to you. Openly communicate your criticism of the employee's current work ethics, but emphasize that you highly valued his performance on former projects.",Ask the employee in a personal conversation why he only makes little progress in his project at present and offer to support him with the further project design by providing specific feedback.,2,"As a leader, it is imperative to maintain an open and healthy relationship with those who work under you. In this context, it is clear that the employee has some issues regarding motivation/work ethic and requires adjustment in order to continue effectively. By doing this in an open and supportive manner, the employee should feel capable of expressing the factors that have impacted their performance. This in conjunction with the offer of support will provide them with the opportunity to improve and succeed. Though there is no guaranteetheir behavior will change, such a course will at least afford the opportunity, which is what's best both for the employee and the company.","important,cautious,industrious,serious","stern,critical,dominating,persistent","sentimental,happy,sociable,humorous","superficial,irresponsible,impulsive,dishonest","reward,hands-off,manage,adequate","delegate,monitor,network,control",White,25,Man,79,Bachelor's degree or higher,Operation Supervisor,0.33
27,"cautious,reliable,practical,skillful","critical,moody,shrewd,persistent","modest,tolerant,helpful,humorous","superficial,irresponsible,vain,wavering","reward,careful,hands-on,adequate","discipline,network,control,influence",-10,26,NA,NA,NA,sim,Yes,Ask the employee in a personal conversation why he only makes little progress in his project at present and offer to support him with the further project design by providing specific feedback.,"Point out to the employee how important his full commitment is to you. Openly communicate your criticism of the employee's current work ethics, but emphasize that you highly valued his performance on former projects.",1,It is important as a leader of a team to set the level of expectation at all times. There is no room for ambiguity as this can lead to loose interpretations or conflict over what was mandated at the beginning of the working relationship. It is also important to openly express praise and acknowledgement for past achievements because often team members simply lack motivation or sense of purpose and giving them that can often lead to an improved sense of self and identity within the organisation and team.,"important,intelligent,reliable,practical","critical,shrewd,dominating,persistent","warm,tolerant,helpful,sociable","superficial,vain,impulsive,wavering","careful,hands-on,manage,adequate","discipline,delegate,recognizable,influence",White,27,Man,84,Bachelor's degree or higher,"Fleet Supervisor, Entertainment Experience",0.45
28,"important,industrious,intelligent,skillful","critical,shrewd,dominating,persistent","tolerant,helpful,sociable,humorous","superficial,vain,dishonest,wavering","question,responsible,hands-on,manage","delegate,control,recognizable,influence",50,-12,NA,NA,NA,sim,Yes,"Point out to the employee how important his full commitment is to you. Openly communicate your criticism of the employee's current work ethics, but emphasize that you highly valued his performance on former projects.",Ask the employee in a personal conversation why he only makes little progress in his project at present and offer to support him with the further project design by providing specific feedback.,1,"If the employee has been with the company for three years, he has to have done something right in the past and it's never good for a company to lose a valuable employee. I would openly communicate with the employee to find out what has changed. Maybe he is not interested in the new project that he's currently working on and he could be moved to a different department. I would make it clear that his current behavior is unacceptable - he needs to arrive on time and should put in just as much effort as everyone else on the team. But I would leave the line of communication open to see if there is something changeable that we can work on together to bring him back around.","intelligent,reliable,practical,skillful","stern,critical,dominating,persistent","warm,tolerant,helpful,sociable","superficial,vain,impulsive,wavering","responsible,hands-on,manage,adequate","delegate,social,recognizable,influence",White,38,Woman,68,Associate's degree,Center Manager,0.55
29,"industrious,intelligent,reliable,skillful","stern,critical,dominating,persistent","tolerant,helpful,sociable,humorous","vain,impulsive,dishonest,wasteful","question,responsible,hands-on,manage","discipline,delegate,network,influence",24,23,NA,NA,NA,sim,Yes,"Point out to the employee how important his full commitment is to you. Openly communicate your criticism of the employee's current work ethics, but emphasize that you highly valued his performance on former projects.",Ask the employee in a personal conversation why he only makes little progress in his project at present and offer to support him with the further project design by providing specific feedback.,1,"Although I had nothing against the other option, I thought it was very incomplete as a strategy. As a leader, it's important to be clear about how crucial it is that employees be committed to their work and to motivate them to invest themselves in their work. And constructive criticism is part of the tools a leader has at their disposal to help an employee become better at their work and more invested. Of course, criticism should always come with acknowledgement of an employee's strengths and accomplishments, otherwise it becomes lopsided and depressing for the employee who sees only their flaws being noticed, not the good they do in their work. It has to be balanced.","industrious,intelligent,reliable,skillful","stern,critical,shrewd,persistent","modest,warm,tolerant,helpful","vain,impulsive,dishonest,wasteful","reward,question,responsible,manage","delegate,network,social,influence",White,60,Woman,96,Bachelor's degree or higher,Service Coordinator,0.66
30,"intelligent,reliable,practical,serious","stern,critical,dominating,persistent","modest,warm,tolerant,helpful","vain,impulsive,wavering,wasteful","question,responsible,manage,adequate","discipline,monitor,network,influence",48,NA,NA,46,NA,dissim,Yes,"Point out to the employee how important his full commitment is to you. Openly communicate your criticism of the employee's current work ethics, but emphasize that you highly valued his performance on former projects.",Ask the employee in a personal conversation why he only makes little progress in his project at present and offer to support him with the further project design by providing specific feedback.,1,"I believe being open and honest with the employee is very important. I think discussing the current issues in their work while bringing up the fact that you know they can do better helps balance things out. If someone isn't putting their full effort into a project it has an effect on everyone else working on that project. If the employee doesn't turn their behavior around, I don't want them to feel blindsided when the discussion gets more serious.","intelligent,reliable,practical,skillful","stern,critical,dominating,persistent","modest,warm,tolerant,helpful","superficial,vain,dishonest,wavering","responsible,hands-on,hands-off,manage","delegate,monitor,control,recognizable",White,35,Man,100,Bachelor's degree or higher,Sr Programmer,0.5
31,"important,industrious,intelligent,reliable","cold,critical,moody,shrewd","warm,happy,tolerant,humorous","unintelligent,superficial,impulsive,wavering","reward,hands-on,hands-off,adequate","discipline,delegate,monitor,control",-19,NA,NA,NA,22,dissim,No,"Point out to the employee how important his full commitment is to you. Openly communicate your criticism of the employee's current work ethics, but emphasize that you highly valued his performance on former projects.",Ask the employee in a personal conversation why he only makes little progress in his project at present and offer to support him with the further project design by providing specific feedback.,2,"Because this person has worked on a project with my group for two years, he is obviously trusted and a valuable member. I think it would be better to show him more empathy and care than discipline and questioning. You never know if something personal is occurring in his life that he has to deal with in addition to his work. Being on the defensive right off the bat would just make him defensive and further not want to work. I as a manager want to motivate him.","intelligent,reliable,practical,skillful","stern,critical,dominating,persistent","modest,warm,helpful,sociable","superficial,vain,impulsive,wasteful","responsible,hands-on,manage,adequate","delegate,monitor,recognizable,influence",Hispanic/Latino,51,Woman,58,Bachelor's degree or higher,Operations Manager,0.26
32,"important,intelligent,reliable,skillful","cold,stern,critical,persistent","modest,happy,helpful,sociable","superficial,impulsive,dishonest,wasteful","reward,responsible,hands-on,manage","discipline,control,recognizable,influence",-38,NA,8,NA,NA,sim,No,"Point out to the employee how important his full commitment is to you. Openly communicate your criticism of the employee's current work ethics, but emphasize that you highly valued his performance on former projects.",Ask the employee in a personal conversation why he only makes little progress in his project at present and offer to support him with the further project design by providing specific feedback.,2,"Because this person has worked on a project with my group for two years, he is obviously trusted and a valuable member. I think it would be better to show him more empathy and care than discipline and questioning. You never know if something personal is occurring in his life that he has to deal with in addition to his work. Being on the defensive right off the bat would just make him defensive and further not want to work. I as a manager want to motivate him.","intelligent,reliable,practical,skillful","stern,critical,dominating,persistent","modest,warm,helpful,sociable","superficial,vain,impulsive,wasteful","responsible,hands-on,manage,adequate","delegate,monitor,recognizable,influence",Hispanic/Latino,51,Woman,58,Bachelor's degree or higher,Operations Manager,0.55
33,"cautious,intelligent,reliable,serious","critical,shrewd,dominating,persistent","warm,happy,tolerant,sociable","vain,impulsive,wavering,wasteful","careful,responsible,hands-on,manage","discipline,monitor,recognizable,influence",-20,NA,NA,NA,14,dissim,No,"Point out to the employee how important his full commitment is to you. Openly communicate your criticism of the employee's current work ethics, but emphasize that you highly valued his performance on former projects.",Ask the employee in a personal conversation why he only makes little progress in his project at present and offer to support him with the further project design by providing specific feedback.,2,"The change in productivity could indicate that the employee is either dissatisfied with their current project or has personal issues. Either way, it's better to get to know the employee and find out why their behavior changed, rather than lecture them about how much they should care. Additionally, there is nothing wrong with the employee working only as long as required. Coming in late should be addressed, but they are not obligated to work longer than required.","intelligent,reliable,serious,skillful","cold,stern,critical,persistent","modest,tolerant,helpful,sociable","superficial,irresponsible,wavering,wasteful","question,careful,responsible,manage","discipline,control,social,influence",White,28,Man,100,Associate's degree,Soldier,0.41
34,"industrious,reliable,practical,skillful","stern,critical,shrewd,persistent","modest,happy,tolerant,helpful","superficial,vain,impulsive,wavering","reward,responsible,hands-on,manage","delegate,control,recognizable,influence",30,NA,29,NA,NA,sim,No,"Point out to the employee how important his full commitment is to you. Openly communicate your criticism of the employee's current work ethics, but emphasize that you highly valued his performance on former projects.",Ask the employee in a personal conversation why he only makes little progress in his project at present and offer to support him with the further project design by providing specific feedback.,1,"I believe being open and honest with the employee is very important. I think discussing the current issues in their work while bringing up the fact that you know they can do better helps balance things out. If someone isn't putting their full effort into a project it has an effect on everyone else working on that project. If the employee doesn't turn their behavior around, I don't want them to feel blindsided when the discussion gets more serious.","intelligent,reliable,practical,skillful","stern,critical,dominating,persistent","modest,warm,tolerant,helpful","superficial,vain,dishonest,wavering","responsible,hands-on,hands-off,manage","delegate,monitor,control,recognizable",White,35,Man,100,Bachelor's degree or higher,Sr Programmer,0.6
35,"reliable,practical,serious,skillful","critical,shrewd,dominating,persistent","warm,tolerant,helpful,humorous","superficial,impulsive,wavering,wasteful","question,hands-on,hands-off,manage","delegate,monitor,network,influence",25,22,NA,NA,NA,sim,Yes,"Point out to the employee how important his full commitment is to you. Openly communicate your criticism of the employee's current work ethics, but emphasize that you highly valued his performance on former projects.",Ask the employee in a personal conversation why he only makes little progress in his project at present and offer to support him with the further project design by providing specific feedback.,1,"If the employee has been with the company for three years, he has to have done something right in the past and it's never good for a company to lose a valuable employee. I would openly communicate with the employee to find out what has changed. Maybe he is not interested in the new project that he's currently working on and he could be moved to a different department. I would make it clear that his current behavior is unacceptable - he needs to arrive on time and should put in just as much effort as everyone else on the team. But I would leave the line of communication open to see if there is something changeable that we can work on together to bring him back around.","intelligent,reliable,practical,skillful","stern,critical,dominating,persistent","warm,tolerant,helpful,sociable","superficial,vain,impulsive,wavering","responsible,hands-on,manage,adequate","delegate,social,recognizable,influence",White,38,Woman,68,Associate's degree,Center Manager,0.5
36,"important,intelligent,reliable,skillful","stern,critical,dominating,persistent","modest,warm,helpful,sociable","superficial,vain,impulsive,wavering","careful,hands-on,manage,adequate","discipline,delegate,control,influence",-50,NA,NA,-50,NA,dissim,Yes,Ask the employee in a personal conversation why he only makes little progress in his project at present and offer to support him with the further project design by providing specific feedback.,"Point out to the employee how important his full commitment is to you. Openly communicate your criticism of the employee's current work ethics, but emphasize that you highly valued his performance on former projects.",1,"I think in this scenario, open communication is a must. When there is an issue, open communication is necessary. This eliminates any possibility of assumptions, malice, and misunderstanding. I think openly communicating criticism while praising prior performance to this employee is important. Instead of specifying the current flaws of the employee, I choose to remind the employee of their valued performance in earlier years. Nevertheless, I am still discussing  the issues that need to be fixed presently with the employee.","industrious,practical,serious,skillful","stern,critical,dominating,persistent","tolerant,helpful,sociable,humorous","superficial,irresponsible,dishonest,wavering","question,responsible,hands-off,adequate","network,social,recognizable,influence",Asian,21,Woman,23,Associate's degree,Marketing Manager,0.3
37,"reliable,practical,serious,skillful","cold,moody,dominating,persistent","modest,warm,helpful,sociable","superficial,vain,wavering,wasteful","careful,responsible,manage,adequate","discipline,delegate,social,influence",-31,NA,NA,NA,-43,dissim,No,Ask the employee in a personal conversation why he only makes little progress in his project at present and offer to support him with the further project design by providing specific feedback.,"Point out to the employee how important his full commitment is to you. Openly communicate your criticism of the employee's current work ethics, but emphasize that you highly valued his performance on former projects.",1,"I think you have to be as clear as possible with communication. You can still be sensitive to asking the employee personally what's going on, but they need to know the importance of their value to the team. As long as the employee knows we value their work and value them as an individual, this conversation should be fine. If not, that means this employee is ready to leave the company and it will be for the best.","important,intelligent,reliable,skillful","stern,critical,dominating,persistent","happy,helpful,sociable,humorous","superficial,vain,impulsive,wavering","reward,hands-on,manage,adequate","network,social,recognizable,influence",Black or African American,24,Woman,79,Bachelor's degree or higher,Marketing Coordinator,0.37
38,"important,industrious,intelligent,serious","critical,shrewd,dominating,persistent","happy,tolerant,helpful,sociable","superficial,vain,impulsive,wavering","reward,responsible,hands-on,manage","discipline,control,recognizable,influence",-50,NA,-50,NA,NA,sim,No,"Point out to the employee how important his full commitment is to you. Openly communicate your criticism of the employee's current work ethics, but emphasize that you highly valued his performance on former projects.",Ask the employee in a personal conversation why he only makes little progress in his project at present and offer to support him with the further project design by providing specific feedback.,2,"There may be outside distractions that are affecting his work performance.He's proven in the past that he is more than capable of doing above average work, so we should give his the opportunity to improve. Maybe we are not challenging him enough or not giving enough guidance. We need to let him know that weexpect more from him and it has been noted that his work has slipped.We should first try to support him if we can and let him know that we will.","intelligent,reliable,practical,skillful","stern,critical,shrewd,dominating","modest,tolerant,helpful,sociable","irresponsible,vain,impulsive,dishonest","responsible,hands-on,hands-off,manage","discipline,delegate,control,recognizable",Asian,52,Man,45,Bachelor's degree or higher,Software Tester,0.45
39,"cautious,intelligent,reliable,serious","cold,critical,humorless,moody","modest,warm,tolerant,sociable","unintelligent,irresponsible,vain,wavering","reward,question,responsible,manage","discipline,monitor,social,recognizable",26,NA,NA,-9,NA,dissim,Yes,Ask the employee in a personal conversation why he only makes little progress in his project at present and offer to support him with the further project design by providing specific feedback.,"Point out to the employee how important his full commitment is to you. Openly communicate your criticism of the employee's current work ethics, but emphasize that you highly valued his performance on former projects.",2,"Because this person has worked on a project with my group for two years, he is obviously trusted and a valuable member. I think it would be better to show him more empathy and care than discipline and questioning. You never know if something personal is occurring in his life that he has to deal with in addition to his work. Being on the defensive right off the bat would just make him defensive and further not want to work. I as a manager want to motivate him.","intelligent,reliable,practical,skillful","stern,critical,dominating,persistent","modest,warm,helpful,sociable","superficial,vain,impulsive,wasteful","responsible,hands-on,manage,adequate","delegate,monitor,recognizable,influence",Hispanic/Latino,51,Woman,58,Bachelor's degree or higher,Operations Manager,0.3
40,"industrious,intelligent,reliable,skillful","critical,shrewd,dominating,persistent","modest,tolerant,helpful,sociable","unintelligent,vain,impulsive,wavering","careful,hands-on,manage,adequate","discipline,delegate,monitor,control",36,11,NA,NA,NA,sim,Yes,Ask the employee in a personal conversation why he only makes little progress in his project at present and offer to support him with the further project design by providing specific feedback.,"Point out to the employee how important his full commitment is to you. Openly communicate your criticism of the employee's current work ethics, but emphasize that you highly valued his performance on former projects.",2,"A discussion about the employee's behavior is necessary to determine a future course of action. There are numerous reasons, some of which could easily be fixed, that could explain his problematic behavior. Meeting to evaluate his needs and discuss the company's and employees goals is the best step.","intelligent,reliable,serious,skillful","stern,critical,dominating,persistent","modest,warm,tolerant,helpful","vain,impulsive,dishonest,wasteful","careful,responsible,hands-on,manage","delegate,monitor,control,influence",White,36,Man,71,Bachelor's degree or higher,Clinical Neuropsychologist,0.55
41,"important,intelligent,practical,skillful","cold,critical,shrewd,dominating","warm,happy,sociable,humorous","unintelligent,irresponsible,dishonest,wasteful","question,hands-off,manage,adequate","monitor,control,recognizable,influence",-38,NA,-34,NA,NA,sim,No,Ask the employee in a personal conversation why he only makes little progress in his project at present and offer to support him with the further project design by providing specific feedback.,"Point out to the employee how important his full commitment is to you. Openly communicate your criticism of the employee's current work ethics, but emphasize that you highly valued his performance on former projects.",1,"I think in this scenario, open communication is a must. When there is an issue, open communication is necessary. This eliminates any possibility of assumptions, malice, and misunderstanding. I think openly communicating criticism while praising prior performance to this employee is important. Instead of specifying the current flaws of the employee, I choose to remind the employee of their valued performance in earlier years. Nevertheless, I am still discussing  the issues that need to be fixed presently with the employee.","industrious,practical,serious,skillful","stern,critical,dominating,persistent","tolerant,helpful,sociable,humorous","superficial,irresponsible,dishonest,wavering","question,responsible,hands-off,adequate","network,social,recognizable,influence",Asian,21,Woman,23,Associate's degree,Marketing Manager,0.37
42,"industrious,intelligent,reliable,practical","stern,critical,shrewd,persistent","modest,tolerant,helpful,sociable","unintelligent,superficial,impulsive,wasteful","careful,responsible,hands-on,manage","discipline,monitor,control,influence",26,NA,NA,NA,26,dissim,No,"Point out to the employee how important his full commitment is to you. Openly communicate your criticism of the employee's current work ethics, but emphasize that you highly valued his performance on former projects.",Ask the employee in a personal conversation why he only makes little progress in his project at present and offer to support him with the further project design by providing specific feedback.,1,"As his manager, a personal conversation would be inappropriate. It could show favoritism. Pointing out how he is failing to meet expectations helps him understand what needs to change. Expressing that his earlier accomplishment did not go unnoticed could prevent him from feeling like he is not a part of the team.","important,cautious,industrious,serious","cold,stern,critical,dominating","sentimental,happy,sociable,humorous","vain,impulsive,dishonest,wasteful","reward,question,hands-on,manage","delegate,monitor,control,recognizable",White,30,Man,44,Some college,JMC Engineer,0.26
43,"important,industrious,reliable,serious","stern,critical,humorless,persistent","modest,warm,tolerant,helpful","superficial,impulsive,wavering,wasteful","question,careful,responsible,manage","discipline,delegate,monitor,control",-37,-11,NA,NA,NA,sim,Yes,Ask the employee in a personal conversation why he only makes little progress in his project at present and offer to support him with the further project design by providing specific feedback.,"Point out to the employee how important his full commitment is to you. Openly communicate your criticism of the employee's current work ethics, but emphasize that you highly valued his performance on former projects.",1,"I made my decision because I think that it is important to voice your criticisms/constructive feedback to the employee so that they know what exactly they need to change to become an effective employee. I do not think that it is a good idea to sugar coat the situation because the employee may never know what went wrong in their performance. However, I also think that it is incredibly important to point out the things that the employee is doing well or has done well in the past to increase motivation. Otherwise, they might feel like they are being reprimanded and being looked down upon. The goal is to motivate not to tear down.","important,intelligent,reliable,skillful","stern,critical,shrewd,persistent","warm,tolerant,helpful,sociable","superficial,vain,impulsive,wavering","responsible,hands-on,manage,adequate","discipline,monitor,control,influence",Black or African American,23,Woman,100,Bachelor's degree or higher,Graduate research assistant,0.5
44,"industrious,intelligent,reliable,skillful","critical,shrewd,dominating,persistent","warm,helpful,sociable,humorous","superficial,vain,impulsive,wavering","careful,responsible,hands-on,manage","delegate,network,social,influence",44,NA,NA,NA,-29,dissim,No,Ask the employee in a personal conversation why he only makes little progress in his project at present and offer to support him with the further project design by providing specific feedback.,"Point out to the employee how important his full commitment is to you. Openly communicate your criticism of the employee's current work ethics, but emphasize that you highly valued his performance on former projects.",2,"There may be outside distractions that are affecting his work performance.He's proven in the past that he is more than capable of doing above average work, so we should give his the opportunity to improve. Maybe we are not challenging him enough or not giving enough guidance. We need to let him know that weexpect more from him and it has been noted that his work has slipped.We should first try to support him if we can and let him know that we will.","intelligent,reliable,practical,skillful","stern,critical,shrewd,dominating","modest,tolerant,helpful,sociable","irresponsible,vain,impulsive,dishonest","responsible,hands-on,hands-off,manage","discipline,delegate,control,recognizable",Asian,52,Man,45,Bachelor's degree or higher,Software Tester,0.41
45,"cautious,intelligent,serious,skillful","cold,humorless,shrewd,dominating","warm,happy,sociable,humorous","superficial,irresponsible,impulsive,wavering","careful,responsible,hands-on,manage","delegate,network,recognizable,influence",-13,NA,NA,NA,22,dissim,No,"Point out to the employee how important his full commitment is to you. Openly communicate your criticism of the employee's current work ethics, but emphasize that you highly valued his performance on former projects.",Ask the employee in a personal conversation why he only makes little progress in his project at present and offer to support him with the further project design by providing specific feedback.,2,"I would offer advice to the employee in private. I would not want to embarrass him and would like to figure out what is going on. He might need additional support, or there may be personal circumstances affecting his performance. In addition, it might be that this project is not a good fit for the individual, and we may want to figure out another project that might work better.","industrious,intelligent,reliable,skillful","stern,critical,humorless,persistent","modest,warm,tolerant,helpful","superficial,vain,impulsive,dishonest","careful,responsible,hands-off,manage","delegate,monitor,recognizable,influence",Asian,41,Man,100,Bachelor's degree or higher,Senior Research Director,0.33
46,"intelligent,reliable,practical,serious","cold,critical,dominating,persistent","modest,warm,helpful,sociable","superficial,vain,impulsive,dishonest","careful,responsible,hands-on,manage","discipline,delegate,recognizable,influence",42,NA,NA,NA,30,dissim,No,"Point out to the employee how important his full commitment is to you. Openly communicate your criticism of the employee's current work ethics, but emphasize that you highly valued his performance on former projects.",Ask the employee in a personal conversation why he only makes little progress in his project at present and offer to support him with the further project design by providing specific feedback.,1,"I think you have to be as clear as possible with communication. You can still be sensitive to asking the employee personally what's going on, but they need to know the importance of their value to the team. As long as the employee knows we value their work and value them as an individual, this conversation should be fine. If not, that means this employee is ready to leave the company and it will be for the best.","important,intelligent,reliable,skillful","stern,critical,dominating,persistent","happy,helpful,sociable,humorous","superficial,vain,impulsive,wavering","reward,hands-on,manage,adequate","network,social,recognizable,influence",Black or African American,24,Woman,79,Bachelor's degree or higher,Marketing Coordinator,0.41
47,"intelligent,reliable,serious,skillful","stern,critical,shrewd,persistent","modest,tolerant,helpful,sociable","superficial,vain,impulsive,wavering","reward,careful,responsible,manage","delegate,network,recognizable,influence",-50,-50,NA,NA,NA,sim,Yes,Ask the employee in a personal conversation why he only makes little progress in his project at present and offer to support him with the further project design by providing specific feedback.,"Point out to the employee how important his full commitment is to you. Openly communicate your criticism of the employee's current work ethics, but emphasize that you highly valued his performance on former projects.",1,"If the employee has been with the company for three years, he has to have done something right in the past and it's never good for a company to lose a valuable employee. I would openly communicate with the employee to find out what has changed. Maybe he is not interested in the new project that he's currently working on and he could be moved to a different department. I would make it clear that his current behavior is unacceptable - he needs to arrive on time and should put in just as much effort as everyone else on the team. But I would leave the line of communication open to see if there is something changeable that we can work on together to bring him back around.","intelligent,reliable,practical,skillful","stern,critical,dominating,persistent","warm,tolerant,helpful,sociable","superficial,vain,impulsive,wavering","responsible,hands-on,manage,adequate","delegate,social,recognizable,influence",White,38,Woman,68,Associate's degree,Center Manager,0.6
48,"intelligent,reliable,practical,skillful","critical,shrewd,dominating,persistent","modest,tolerant,helpful,sociable","unintelligent,vain,impulsive,wavering","question,careful,responsible,hands-on","delegate,control,social,influence",49,NA,NA,NA,40,dissim,No,"Point out to the employee how important his full commitment is to you. Openly communicate your criticism of the employee's current work ethics, but emphasize that you highly valued his performance on former projects.",Ask the employee in a personal conversation why he only makes little progress in his project at present and offer to support him with the further project design by providing specific feedback.,1,"I think you have to be as clear as possible with communication. You can still be sensitive to asking the employee personally what's going on, but they need to know the importance of their value to the team. As long as the employee knows we value their work and value them as an individual, this conversation should be fine. If not, that means this employee is ready to leave the company and it will be for the best.","important,intelligent,reliable,skillful","stern,critical,dominating,persistent","happy,helpful,sociable,humorous","superficial,vain,impulsive,wavering","reward,hands-on,manage,adequate","network,social,recognizable,influence",Black or African American,24,Woman,79,Bachelor's degree or higher,Marketing Coordinator,0.41
49,"important,intelligent,reliable,skillful","stern,critical,dominating,persistent","modest,warm,tolerant,helpful","superficial,vain,impulsive,wavering","careful,responsible,hands-on,manage","discipline,delegate,monitor,control",-50,NA,NA,-50,NA,dissim,Yes,"Point out to the employee how important his full commitment is to you. Openly communicate your criticism of the employee's current work ethics, but emphasize that you highly valued his performance on former projects.",Ask the employee in a personal conversation why he only makes little progress in his project at present and offer to support him with the further project design by providing specific feedback.,2,"The change in productivity could indicate that the employee is either dissatisfied with their current project or has personal issues. Either way, it's better to get to know the employee and find out why their behavior changed, rather than lecture them about how much they should care. Additionally, there is nothing wrong with the employee working only as long as required. Coming in late should be addressed, but they are not obligated to work longer than required.","intelligent,reliable,serious,skillful","cold,stern,critical,persistent","modest,tolerant,helpful,sociable","superficial,irresponsible,wavering,wasteful","question,careful,responsible,manage","discipline,control,social,influence",White,28,Man,100,Associate's degree,Soldier,0.5
50,"intelligent,reliable,practical,skillful","stern,critical,dominating,persistent","warm,tolerant,helpful,sociable","unintelligent,superficial,dishonest,wavering","reward,question,responsible,hands-on","network,social,recognizable,influence",-30,NA,NA,NA,38,dissim,No,Ask the employee in a personal conversation why he only makes little progress in his project at present and offer to support him with the further project design by providing specific feedback.,"Point out to the employee how important his full commitment is to you. Openly communicate your criticism of the employee's current work ethics, but emphasize that you highly valued his performance on former projects.",1,It is important as a leader of a team to set the level of expectation at all times. There is no room for ambiguity as this can lead to loose interpretations or conflict over what was mandated at the beginning of the working relationship. It is also important to openly express praise and acknowledgement for past achievements because often team members simply lack motivation or sense of purpose and giving them that can often lead to an improved sense of self and identity within the organisation and team.,"important,intelligent,reliable,practical","critical,shrewd,dominating,persistent","warm,tolerant,helpful,sociable","superficial,vain,impulsive,wavering","careful,hands-on,manage,adequate","discipline,delegate,recognizable,influence",White,27,Man,84,Bachelor's degree or higher,"Fleet Supervisor, Entertainment Experience",0.45
51,"important,industrious,serious,skillful","stern,critical,shrewd,persistent","happy,tolerant,sociable,humorous","superficial,vain,impulsive,dishonest","reward,careful,responsible,adequate","discipline,monitor,network,influence",29,NA,15,NA,NA,sim,No,"Point out to the employee how important his full commitment is to you. Openly communicate your criticism of the employee's current work ethics, but emphasize that you highly valued his performance on former projects.",Ask the employee in a personal conversation why he only makes little progress in his project at present and offer to support him with the further project design by providing specific feedback.,1,"I think in this scenario, open communication is a must. When there is an issue, open communication is necessary. This eliminates any possibility of assumptions, malice, and misunderstanding. I think openly communicating criticism while praising prior performance to this employee is important. Instead of specifying the current flaws of the employee, I choose to remind the employee of their valued performance in earlier years. Nevertheless, I am still discussing  the issues that need to be fixed presently with the employee.","industrious,practical,serious,skillful","stern,critical,dominating,persistent","tolerant,helpful,sociable,humorous","superficial,irresponsible,dishonest,wavering","question,responsible,hands-off,adequate","network,social,recognizable,influence",Asian,21,Woman,23,Associate's degree,Marketing Manager,0.45
52,"industrious,intelligent,reliable,skillful","stern,critical,dominating,persistent","modest,tolerant,helpful,sociable","superficial,vain,impulsive,wavering","careful,responsible,hands-on,manage","discipline,delegate,network,influence",50,-50,NA,NA,NA,sim,Yes,"Point out to the employee how important his full commitment is to you. Openly communicate your criticism of the employee's current work ethics, but emphasize that you highly valued his performance on former projects.",Ask the employee in a personal conversation why he only makes little progress in his project at present and offer to support him with the further project design by providing specific feedback.,1,"If the employee has been with the company for three years, he has to have done something right in the past and it's never good for a company to lose a valuable employee. I would openly communicate with the employee to find out what has changed. Maybe he is not interested in the new project that he's currently working on and he could be moved to a different department. I would make it clear that his current behavior is unacceptable - he needs to arrive on time and should put in just as much effort as everyone else on the team. But I would leave the line of communication open to see if there is something changeable that we can work on together to bring him back around.","intelligent,reliable,practical,skillful","stern,critical,dominating,persistent","warm,tolerant,helpful,sociable","superficial,vain,impulsive,wavering","responsible,hands-on,manage,adequate","delegate,social,recognizable,influence",White,38,Woman,68,Associate's degree,Center Manager,0.66
53,"important,cautious,intelligent,skillful","cold,humorless,shrewd,dominating","warm,helpful,sociable,humorous","unintelligent,irresponsible,dishonest,wasteful","question,careful,hands-on,adequate","delegate,network,social,recognizable",20,NA,NA,NA,-35,dissim,No,Ask the employee in a personal conversation why he only makes little progress in his project at present and offer to support him with the further project design by providing specific feedback.,"Point out to the employee how important his full commitment is to you. Openly communicate your criticism of the employee's current work ethics, but emphasize that you highly valued his performance on former projects.",2,"I would offer advice to the employee in private. I would not want to embarrass him and would like to figure out what is going on. He might need additional support, or there may be personal circumstances affecting his performance. In addition, it might be that this project is not a good fit for the individual, and we may want to figure out another project that might work better.","industrious,intelligent,reliable,skillful","stern,critical,humorless,persistent","modest,warm,tolerant,helpful","superficial,vain,impulsive,dishonest","careful,responsible,hands-off,manage","delegate,monitor,recognizable,influence",Asian,41,Man,100,Bachelor's degree or higher,Senior Research Director,0.23
54,"intelligent,reliable,practical,skillful","stern,critical,shrewd,persistent","modest,warm,tolerant,helpful","unintelligent,superficial,vain,wasteful","careful,responsible,hands-off,manage","discipline,delegate,monitor,influence",50,NA,45,NA,NA,sim,No,"Point out to the employee how important his full commitment is to you. Openly communicate your criticism of the employee's current work ethics, but emphasize that you highly valued his performance on former projects.",Ask the employee in a personal conversation why he only makes little progress in his project at present and offer to support him with the further project design by providing specific feedback.,1,"I believe being open and honest with the employee is very important. I think discussing the current issues in their work while bringing up the fact that you know they can do better helps balance things out. If someone isn't putting their full effort into a project it has an effect on everyone else working on that project. If the employee doesn't turn their behavior around, I don't want them to feel blindsided when the discussion gets more serious.","intelligent,reliable,practical,skillful","stern,critical,dominating,persistent","modest,warm,tolerant,helpful","superficial,vain,dishonest,wavering","responsible,hands-on,hands-off,manage","delegate,monitor,control,recognizable",White,35,Man,100,Bachelor's degree or higher,Sr Programmer,0.6
55,"intelligent,reliable,practical,skillful","cold,critical,dominating,persistent","modest,tolerant,helpful,sociable","vain,impulsive,dishonest,wavering","reward,question,responsible,manage","discipline,delegate,network,influence",50,NA,NA,27,NA,dissim,Yes,"Point out to the employee how important his full commitment is to you. Openly communicate your criticism of the employee's current work ethics, but emphasize that you highly valued his performance on former projects.",Ask the employee in a personal conversation why he only makes little progress in his project at present and offer to support him with the further project design by providing specific feedback.,1,"I think in this scenario, open communication is a must. When there is an issue, open communication is necessary. This eliminates any possibility of assumptions, malice, and misunderstanding. I think openly communicating criticism while praising prior performance to this employee is important. Instead of specifying the current flaws of the employee, I choose to remind the employee of their valued performance in earlier years. Nevertheless, I am still discussing  the issues that need to be fixed presently with the employee.","industrious,practical,serious,skillful","stern,critical,dominating,persistent","tolerant,helpful,sociable,humorous","superficial,irresponsible,dishonest,wavering","question,responsible,hands-off,adequate","network,social,recognizable,influence",Asian,21,Woman,23,Associate's degree,Marketing Manager,0.41
56,"important,cautious,reliable,skillful","stern,critical,shrewd,persistent","modest,tolerant,helpful,sociable","superficial,vain,impulsive,wavering","careful,responsible,manage,adequate","discipline,delegate,network,social",25,13,NA,NA,NA,sim,Yes,"Point out to the employee how important his full commitment is to you. Openly communicate your criticism of the employee's current work ethics, but emphasize that you highly valued his performance on former projects.",Ask the employee in a personal conversation why he only makes little progress in his project at present and offer to support him with the further project design by providing specific feedback.,1,"I made my decision because I think that it is important to voice your criticisms/constructive feedback to the employee so that they know what exactly they need to change to become an effective employee. I do not think that it is a good idea to sugar coat the situation because the employee may never know what went wrong in their performance. However, I also think that it is incredibly important to point out the things that the employee is doing well or has done well in the past to increase motivation. Otherwise, they might feel like they are being reprimanded and being looked down upon. The goal is to motivate not to tear down.","important,intelligent,reliable,skillful","stern,critical,shrewd,persistent","warm,tolerant,helpful,sociable","superficial,vain,impulsive,wavering","responsible,hands-on,manage,adequate","discipline,monitor,control,influence",Black or African American,23,Woman,100,Bachelor's degree or higher,Graduate research assistant,0.6
57,"important,practical,serious,skillful","stern,critical,dominating,persistent","modest,tolerant,sociable,humorous","unintelligent,superficial,irresponsible,impulsive","reward,responsible,hands-on,manage","discipline,monitor,control,influence",19,NA,NA,23,NA,dissim,Yes,"Point out to the employee how important his full commitment is to you. Openly communicate your criticism of the employee's current work ethics, but emphasize that you highly valued his performance on former projects.",Ask the employee in a personal conversation why he only makes little progress in his project at present and offer to support him with the further project design by providing specific feedback.,1,It is important as a leader of a team to set the level of expectation at all times. There is no room for ambiguity as this can lead to loose interpretations or conflict over what was mandated at the beginning of the working relationship. It is also important to openly express praise and acknowledgement for past achievements because often team members simply lack motivation or sense of purpose and giving them that can often lead to an improved sense of self and identity within the organisation and team.,"important,intelligent,reliable,practical","critical,shrewd,dominating,persistent","warm,tolerant,helpful,sociable","superficial,vain,impulsive,wavering","careful,hands-on,manage,adequate","discipline,delegate,recognizable,influence",White,27,Man,84,Bachelor's degree or higher,"Fleet Supervisor, Entertainment Experience",0.37
58,"intelligent,reliable,serious,skillful","critical,moody,dominating,persistent","modest,tolerant,helpful,sociable","superficial,vain,impulsive,wavering","reward,question,careful,manage","delegate,network,social,influence",25,NA,NA,-26,NA,dissim,Yes,Ask the employee in a personal conversation why he only makes little progress in his project at present and offer to support him with the further project design by providing specific feedback.,"Point out to the employee how important his full commitment is to you. Openly communicate your criticism of the employee's current work ethics, but emphasize that you highly valued his performance on former projects.",2,Maybe the manager has something going in their personal life. Criticizing and putting the person down wouldn't not motivate them to do a better job. That's why is better to identify the reason for their behavior and find a solution that will improve their performance without adding more stress to their job. This demonstrates to the project manager that you are there for them if they need help.,"intelligent,reliable,practical,skillful","stern,critical,shrewd,persistent","modest,warm,helpful,sociable","superficial,irresponsible,impulsive,wavering","careful,responsible,hands-on,adequate","network,control,recognizable,influence",White,25,Woman,26,Bachelor's degree or higher,self-employed,0.41
59,"reliable,practical,serious,skillful","cold,humorless,dominating,persistent","happy,tolerant,helpful,sociable","superficial,vain,impulsive,wavering","careful,responsible,hands-on,manage","delegate,monitor,control,influence",42,NA,NA,6,NA,dissim,Yes,"Point out to the employee how important his full commitment is to you. Openly communicate your criticism of the employee's current work ethics, but emphasize that you highly valued his performance on former projects.",Ask the employee in a personal conversation why he only makes little progress in his project at present and offer to support him with the further project design by providing specific feedback.,1,"As his manager, a personal conversation would be inappropriate. It could show favoritism. Pointing out how he is failing to meet expectations helps him understand what needs to change. Expressing that his earlier accomplishment did not go unnoticed could prevent him from feeling like he is not a part of the team.","important,cautious,industrious,serious","cold,stern,critical,dominating","sentimental,happy,sociable,humorous","vain,impulsive,dishonest,wasteful","reward,question,hands-on,manage","delegate,monitor,control,recognizable",White,30,Man,44,Some college,JMC Engineer,0.33
60,"important,intelligent,reliable,skillful","cold,stern,moody,persistent","warm,happy,tolerant,sociable","superficial,vain,dishonest,wasteful","careful,responsible,hands-on,hands-off","discipline,network,social,influence",17,-14,NA,NA,NA,sim,Yes,Ask the employee in a personal conversation why he only makes little progress in his project at present and offer to support him with the further project design by providing specific feedback.,"Point out to the employee how important his full commitment is to you. Openly communicate your criticism of the employee's current work ethics, but emphasize that you highly valued his performance on former projects.",2,All of us generally have lives outside of work. I have been in this type of situation many time as a staff resource manager and there is almost always something behind the behavior. I would talk with the person off the record and make them aware of all we can do to help and support if needed. If the employee was just lacking interest or motivation for the job then that would come out of the conversation and appropriate action could be taken.,"important,industrious,intelligent,skillful","cold,stern,critical,shrewd","modest,warm,tolerant,helpful","superficial,vain,dishonest,wasteful","reward,careful,responsible,manage","discipline,delegate,recognizable,influence",White,44,Woman,100,Bachelor's degree or higher,business owner - Marketing,0.45
61,"industrious,reliable,practical,skillful","stern,critical,shrewd,persistent","modest,warm,helpful,sociable","superficial,impulsive,wavering,wasteful","reward,question,responsible,hands-on","delegate,control,social,influence",14,NA,1,NA,NA,sim,No,"Point out to the employee how important his full commitment is to you. Openly communicate your criticism of the employee's current work ethics, but emphasize that you highly valued his performance on former projects.",Ask the employee in a personal conversation why he only makes little progress in his project at present and offer to support him with the further project design by providing specific feedback.,1,"If the employee has been with the company for three years, he has to have done something right in the past and it's never good for a company to lose a valuable employee. I would openly communicate with the employee to find out what has changed. Maybe he is not interested in the new project that he's currently working on and he could be moved to a different department. I would make it clear that his current behavior is unacceptable - he needs to arrive on time and should put in just as much effort as everyone else on the team. But I would leave the line of communication open to see if there is something changeable that we can work on together to bring him back around.","intelligent,reliable,practical,skillful","stern,critical,dominating,persistent","warm,tolerant,helpful,sociable","superficial,vain,impulsive,wavering","responsible,hands-on,manage,adequate","delegate,social,recognizable,influence",White,38,Woman,68,Associate's degree,Center Manager,0.55
62,"industrious,intelligent,reliable,skillful","critical,shrewd,dominating,persistent","warm,tolerant,helpful,sociable","superficial,vain,impulsive,wasteful","reward,careful,responsible,manage","delegate,social,recognizable,influence",48,-47,NA,NA,NA,sim,Yes,"Point out to the employee how important his full commitment is to you. Openly communicate your criticism of the employee's current work ethics, but emphasize that you highly valued his performance on former projects.",Ask the employee in a personal conversation why he only makes little progress in his project at present and offer to support him with the further project design by providing specific feedback.,1,"If the employee has been with the company for three years, he has to have done something right in the past and it's never good for a company to lose a valuable employee. I would openly communicate with the employee to find out what has changed. Maybe he is not interested in the new project that he's currently working on and he could be moved to a different department. I would make it clear that his current behavior is unacceptable - he needs to arrive on time and should put in just as much effort as everyone else on the team. But I would leave the line of communication open to see if there is something changeable that we can work on together to bring him back around.","intelligent,reliable,practical,skillful","stern,critical,dominating,persistent","warm,tolerant,helpful,sociable","superficial,vain,impulsive,wavering","responsible,hands-on,manage,adequate","delegate,social,recognizable,influence",White,38,Woman,68,Associate's degree,Center Manager,0.66
63,"industrious,reliable,practical,skillful","stern,shrewd,dominating,persistent","modest,warm,helpful,sociable","superficial,impulsive,wavering,wasteful","careful,responsible,hands-on,manage","delegate,monitor,social,influence",-27,NA,-26,NA,NA,sim,No,Ask the employee in a personal conversation why he only makes little progress in his project at present and offer to support him with the further project design by providing specific feedback.,"Point out to the employee how important his full commitment is to you. Openly communicate your criticism of the employee's current work ethics, but emphasize that you highly valued his performance on former projects.",1,"If the employee has been with the company for three years, he has to have done something right in the past and it's never good for a company to lose a valuable employee. I would openly communicate with the employee to find out what has changed. Maybe he is not interested in the new project that he's currently working on and he could be moved to a different department. I would make it clear that his current behavior is unacceptable - he needs to arrive on time and should put in just as much effort as everyone else on the team. But I would leave the line of communication open to see if there is something changeable that we can work on together to bring him back around.","intelligent,reliable,practical,skillful","stern,critical,dominating,persistent","warm,tolerant,helpful,sociable","superficial,vain,impulsive,wavering","responsible,hands-on,manage,adequate","delegate,social,recognizable,influence",White,38,Woman,68,Associate's degree,Center Manager,0.6
64,"intelligent,reliable,practical,skillful","cold,stern,critical,persistent","happy,tolerant,helpful,sociable","superficial,vain,impulsive,wasteful","careful,responsible,hands-on,manage","discipline,delegate,network,influence",-44,-38,NA,NA,NA,sim,Yes,"Point out to the employee how important his full commitment is to you. Openly communicate your criticism of the employee's current work ethics, but emphasize that you highly valued his performance on former projects.",Ask the employee in a personal conversation why he only makes little progress in his project at present and offer to support him with the further project design by providing specific feedback.,2,"A discussion about the employee's behavior is necessary to determine a future course of action. There are numerous reasons, some of which could easily be fixed, that could explain his problematic behavior. Meeting to evaluate his needs and discuss the company's and employees goals is the best step.","intelligent,reliable,serious,skillful","stern,critical,dominating,persistent","modest,warm,tolerant,helpful","vain,impulsive,dishonest,wasteful","careful,responsible,hands-on,manage","delegate,monitor,control,influence",White,36,Man,71,Bachelor's degree or higher,Clinical Neuropsychologist,0.55
65,"intelligent,reliable,practical,serious","stern,critical,humorless,persistent","warm,helpful,sociable,humorous","superficial,vain,impulsive,dishonest","careful,responsible,hands-on,manage","delegate,monitor,recognizable,influence",50,NA,NA,NA,28,dissim,No,"Point out to the employee how important his full commitment is to you. Openly communicate your criticism of the employee's current work ethics, but emphasize that you highly valued his performance on former projects.",Ask the employee in a personal conversation why he only makes little progress in his project at present and offer to support him with the further project design by providing specific feedback.,1,"I think in this scenario, open communication is a must. When there is an issue, open communication is necessary. This eliminates any possibility of assumptions, malice, and misunderstanding. I think openly communicating criticism while praising prior performance to this employee is important. Instead of specifying the current flaws of the employee, I choose to remind the employee of their valued performance in earlier years. Nevertheless, I am still discussing  the issues that need to be fixed presently with the employee.","industrious,practical,serious,skillful","stern,critical,dominating,persistent","tolerant,helpful,sociable,humorous","superficial,irresponsible,dishonest,wavering","question,responsible,hands-off,adequate","network,social,recognizable,influence",Asian,21,Woman,23,Associate's degree,Marketing Manager,0.37
66,"cautious,reliable,practical,skillful","stern,moody,shrewd,persistent","warm,tolerant,helpful,sociable","superficial,impulsive,wavering,wasteful","careful,responsible,hands-on,manage","discipline,delegate,social,recognizable",-50,NA,-16,NA,NA,sim,No,Ask the employee in a personal conversation why he only makes little progress in his project at present and offer to support him with the further project design by providing specific feedback.,"Point out to the employee how important his full commitment is to you. Openly communicate your criticism of the employee's current work ethics, but emphasize that you highly valued his performance on former projects.",1,"If the employee has been with the company for three years, he has to have done something right in the past and it's never good for a company to lose a valuable employee. I would openly communicate with the employee to find out what has changed. Maybe he is not interested in the new project that he's currently working on and he could be moved to a different department. I would make it clear that his current behavior is unacceptable - he needs to arrive on time and should put in just as much effort as everyone else on the team. But I would leave the line of communication open to see if there is something changeable that we can work on together to bring him back around.","intelligent,reliable,practical,skillful","stern,critical,dominating,persistent","warm,tolerant,helpful,sociable","superficial,vain,impulsive,wavering","responsible,hands-on,manage,adequate","delegate,social,recognizable,influence",White,38,Woman,68,Associate's degree,Center Manager,0.6
67,"important,intelligent,reliable,skillful","cold,critical,dominating,persistent","modest,warm,tolerant,helpful","superficial,vain,dishonest,wavering","question,careful,manage,adequate","discipline,network,control,influence",-14,NA,NA,NA,6,dissim,No,"Point out to the employee how important his full commitment is to you. Openly communicate your criticism of the employee's current work ethics, but emphasize that you highly valued his performance on former projects.",Ask the employee in a personal conversation why he only makes little progress in his project at present and offer to support him with the further project design by providing specific feedback.,2,"Because this person has worked on a project with my group for two years, he is obviously trusted and a valuable member. I think it would be better to show him more empathy and care than discipline and questioning. You never know if something personal is occurring in his life that he has to deal with in addition to his work. Being on the defensive right off the bat would just make him defensive and further not want to work. I as a manager want to motivate him.","intelligent,reliable,practical,skillful","stern,critical,dominating,persistent","modest,warm,helpful,sociable","superficial,vain,impulsive,wasteful","responsible,hands-on,manage,adequate","delegate,monitor,recognizable,influence",Hispanic/Latino,51,Woman,58,Bachelor's degree or higher,Operations Manager,0.41
